mvo.vel_x,mvo.vel_y,mvo.vel_z,mvo.pos_x,mvo.pos_y,mvo.pos_z,imu.acc_x,imu.acc_y,imu.acc_z,imu.gyro_x,imu.gyro_y,imu.gyro_z,imu.q0,imu.q1,imu.q2, self.q3,imu.vg_x,imu.vg_y,imu.vg_z
0.370000,-0.230000,0.090000,-0.029260,0.364624,-1.484210,0.000000,0.000000,0.000000,0.000000,0.000000,0.000000,0.000000,0.000000,0.000000,0.000000,0.000000,0.000000,0.000000
0.370000,-0.230000,0.090000,-0.029260,0.364624,-1.484210,-0.002168,-0.014743,-0.976632,-0.033489,-0.031786,-0.000784,0.999908,-0.000816,-0.013543,-0.000704,0.067896,-0.037464,0.008660
0.370000,-0.230000,0.090000,-0.029260,0.364624,-1.484210,-0.002168,-0.014743,-0.976632,-0.033489,-0.031786,-0.000784,0.999908,-0.000816,-0.013543,-0.000704,0.067896,-0.037464,0.008660
0.370000,-0.230000,0.090000,-0.029260,0.364624,-1.484210,-0.024754,0.001297,-1.006639,0.020712,0.037805,-0.002900,0.999901,-0.000723,-0.014059,-0.000437,0.070408,-0.039016,0.009561
0.310000,-0.200000,0.140000,-0.032303,0.364060,-1.480281,-0.024754,0.001297,-1.006639,0.020712,0.037805,-0.002900,0.999901,-0.000723,-0.014059,-0.000437,0.070408,-0.039016,0.009561
0.310000,-0.200000,0.140000,-0.032303,0.364060,-1.480281,-0.009101,-0.020126,-0.981733,-0.017600,-0.000977,0.004342,0.999896,-0.000122,-0.014402,-0.000430,0.070116,-0.037476,0.018185
0.310000,-0.200000,0.140000,-0.032303,0.364060,-1.480281,-0.009101,-0.020126,-0.981733,-0.017600,-0.000977,0.004342,0.999896,-0.000122,-0.014402,-0.000430,0.070116,-0.037476,0.018185
0.310000,-0.200000,0.140000,-0.032303,0.364060,-1.480281,-0.013744,0.009526,-0.998340,-0.011056,0.045401,-0.003169,0.999906,-0.000321,-0.013728,-0.000543,0.069187,-0.036876,0.014667
0.310000,-0.200000,0.140000,-0.032303,0.364060,-1.480281,-0.013744,0.009526,-0.998340,-0.011056,0.045401,-0.003169,0.999906,-0.000321,-0.013728,-0.000543,0.069187,-0.036876,0.014667
0.320000,-0.200000,0.140000,-0.035427,0.364600,-1.477571,-0.013744,0.009526,-0.998340,-0.011056,0.045401,-0.003169,0.999906,-0.000321,-0.013728,-0.000543,0.069187,-0.036876,0.014667
0.320000,-0.200000,0.140000,-0.035427,0.364600,-1.477571,-0.017630,-0.004777,-1.011483,-0.018007,0.003000,-0.005383,0.999902,-0.000381,-0.013946,-0.000725,0.073392,-0.030304,0.007526
0.320000,-0.200000,0.140000,-0.035427,0.364600,-1.477571,-0.017630,-0.004777,-1.011483,-0.018007,0.003000,-0.005383,0.999902,-0.000381,-0.013946,-0.000725,0.073392,-0.030304,0.007526
0.320000,-0.200000,0.140000,-0.035427,0.364600,-1.477571,-0.000500,-0.022793,-1.016456,-0.004434,-0.011852,0.008751,0.999899,-0.001202,-0.014135,-0.000799,0.068078,-0.032594,0.006337
0.450000,-0.070000,0.060000,-0.032512,0.368946,-1.476447,-0.000500,-0.022793,-1.016456,-0.004434,-0.011852,0.008751,0.999899,-0.001202,-0.014135,-0.000799,0.068078,-0.032594,0.006337
0.450000,-0.070000,0.060000,-0.032512,0.368946,-1.476447,-0.011012,-0.011765,-0.985856,0.006224,-0.019884,0.000887,0.999888,-0.000993,-0.014894,-0.001073,0.070392,-0.030644,0.003541
0.450000,-0.070000,0.060000,-0.032512,0.368946,-1.476447,-0.011012,-0.011765,-0.985856,0.006224,-0.019884,0.000887,0.999888,-0.000993,-0.014894,-0.001073,0.070392,-0.030644,0.003541
0.450000,-0.070000,0.060000,-0.032512,0.368946,-1.476447,0.007393,-0.012420,-0.984901,-0.000443,0.025445,-0.009969,0.999890,-0.001100,-0.014743,-0.000935,0.081186,-0.028271,0.007548
0.510000,-0.090000,0.010000,-0.031672,0.371548,-1.476914,0.007393,-0.012420,-0.984901,-0.000443,0.025445,-0.009969,0.999890,-0.001100,-0.014743,-0.000935,0.081186,-0.028271,0.007548
0.510000,-0.090000,0.010000,-0.031672,0.371548,-1.476914,-0.017329,0.027494,-1.002596,-0.012867,0.036524,-0.021683,0.999909,-0.001700,-0.013300,-0.001492,0.081763,-0.021850,0.000594
0.510000,-0.090000,0.010000,-0.031672,0.371548,-1.476914,-0.017329,0.027494,-1.002596,-0.012867,0.036524,-0.021683,0.999909,-0.001700,-0.013300,-0.001492,0.081763,-0.021850,0.000594
0.510000,-0.090000,0.010000,-0.031672,0.371548,-1.476914,-0.012886,-0.001920,-0.995902,-0.021598,0.018807,0.002428,0.999913,-0.003501,-0.012651,-0.001545,0.079198,-0.020236,-0.001252
0.660000,-0.010000,-0.020000,-0.023295,0.377401,-1.479754,-0.012886,-0.001920,-0.995902,-0.021598,0.018807,0.002428,0.999913,-0.003501,-0.012651,-0.001545,0.079198,-0.020236,-0.001252
0.660000,-0.010000,-0.020000,-0.023295,0.377401,-1.479754,-0.032166,0.020963,-1.008855,0.003307,0.006335,-0.003629,0.999909,-0.004313,-0.012658,-0.001781,0.082672,-0.023336,0.003506
0.660000,-0.010000,-0.020000,-0.023295,0.377401,-1.479754,-0.032166,0.020963,-1.008855,0.003307,0.006335,-0.003629,0.999909,-0.004313,-0.012658,-0.001781,0.082672,-0.023336,0.003506
0.660000,-0.010000,-0.020000,-0.023295,0.377401,-1.479754,-0.006949,-0.011357,-0.990690,-0.011394,0.017964,0.011763,0.999914,-0.003710,-0.012462,-0.001659,0.085473,-0.019915,-0.001123
0.250000,-0.320000,-0.050000,-0.031743,0.371417,-1.482217,-0.006949,-0.011357,-0.990690,-0.011394,0.017964,0.011763,0.999914,-0.003710,-0.012462,-0.001659,0.085473,-0.019915,-0.001123
0.250000,-0.320000,-0.050000,-0.031743,0.371417,-1.482217,-0.030538,-0.023471,-1.001699,0.006487,0.035880,0.008509,0.999929,-0.004518,-0.010948,-0.001629,0.073271,-0.029032,0.003661
0.250000,-0.320000,-0.050000,-0.031743,0.371417,-1.482217,-0.030538,-0.023471,-1.001699,0.006487,0.035880,0.008509,0.999929,-0.004518,-0.010948,-0.001629,0.073271,-0.029032,0.003661
0.250000,-0.320000,-0.050000,-0.031743,0.371417,-1.482217,-0.012176,0.003923,-1.002538,0.019196,-0.048792,0.003710,0.999913,-0.003807,-0.012523,-0.001523,0.054426,-0.044870,0.005371
0.250000,-0.320000,-0.050000,-0.031743,0.371417,-1.482217,-0.012176,0.003923,-1.002538,0.019196,-0.048792,0.003710,0.999913,-0.003807,-0.012523,-0.001523,0.054426,-0.044870,0.005371
0.510000,-0.250000,-0.020000,-0.023925,0.374578,-1.484966,-0.012176,0.003923,-1.002538,0.019196,-0.048792,0.003710,0.999913,-0.003807,-0.012523,-0.001523,0.054426,-0.044870,0.005371
0.510000,-0.250000,-0.020000,-0.023925,0.374578,-1.484966,-0.024670,0.014620,-1.003668,0.034097,-0.017016,0.015050,0.999883,-0.000997,-0.015213,-0.001411,0.066464,-0.048138,0.003320
0.510000,-0.250000,-0.020000,-0.023925,0.374578,-1.484966,-0.024670,0.014620,-1.003668,0.034097,-0.017016,0.015050,0.999883,-0.000997,-0.015213,-0.001411,0.066464,-0.048138,0.003320
0.510000,-0.250000,-0.020000,-0.023925,0.374578,-1.484966,-0.001691,0.011604,-0.999307,-0.037083,-0.033669,0.005922,0.999899,0.000135,-0.014145,-0.001114,0.074915,-0.037845,-0.002674
0.510000,-0.250000,-0.020000,-0.023925,0.374578,-1.484966,-0.001691,0.011604,-0.999307,-0.037083,-0.033669,0.005922,0.999899,0.000135,-0.014145,-0.001114,0.074915,-0.037845,-0.002674
0.590000,-0.200000,-0.130000,-0.019982,0.373533,-1.489715,-0.001691,0.011604,-0.999307,-0.037083,-0.033669,0.005922,0.999899,0.000135,-0.014145,-0.001114,0.074915,-0.037845,-0.002674
0.590000,-0.200000,-0.130000,-0.019982,0.373533,-1.489715,-0.005855,-0.017321,-0.977169,-0.022659,0.029779,0.003326,0.999906,-0.000836,-0.013624,-0.001046,0.083361,-0.030816,-0.001072
0.590000,-0.200000,-0.130000,-0.019982,0.373533,-1.489715,-0.005855,-0.017321,-0.977169,-0.022659,0.029779,0.003326,0.999906,-0.000836,-0.013624,-0.001046,0.083361,-0.030816,-0.001072
0.590000,-0.200000,-0.130000,-0.019982,0.373533,-1.489715,-0.011198,-0.019142,-0.985107,-0.050034,0.006478,0.013477,0.999932,-0.001828,-0.011494,-0.000577,0.082910,-0.026612,-0.001885
0.410000,-0.180000,-0.120000,-0.022509,0.372025,-1.494477,-0.011198,-0.019142,-0.985107,-0.050034,0.006478,0.013477,0.999932,-0.001828,-0.011494,-0.000577,0.082910,-0.026612,-0.001885
0.410000,-0.180000,-0.120000,-0.022509,0.372025,-1.494477,-0.018399,0.006450,-0.994370,-0.019360,0.021095,-0.005210,0.999942,-0.002866,-0.010382,-0.000361,0.076075,-0.032433,0.001017
0.410000,-0.180000,-0.120000,-0.022509,0.372025,-1.494477,-0.018399,0.006450,-0.994370,-0.019360,0.021095,-0.005210,0.999942,-0.002866,-0.010382,-0.000361,0.076075,-0.032433,0.001017
0.410000,-0.180000,-0.120000,-0.022509,0.372025,-1.494477,-0.015442,-0.004950,-1.003068,0.010378,-0.039880,0.010751,0.999927,-0.002585,-0.011785,-0.000213,0.065058,-0.035680,0.003651
0.410000,-0.180000,-0.120000,-0.022509,0.372025,-1.494477,-0.002070,-0.007756,-1.001852,-0.052645,-0.005451,-0.001713,0.999903,-0.003737,-0.013424,-0.000228,0.060308,-0.018318,0.003975
0.340000,0.040000,-0.080000,-0.022084,0.380345,-1.503996,-0.002070,-0.007756,-1.001852,-0.052645,-0.005451,-0.001713,0.999903,-0.003737,-0.013424,-0.000228,0.060308,-0.018318,0.003975
0.340000,0.040000,-0.080000,-0.022084,0.380345,-1.503996,-0.008166,-0.000713,-0.992867,-0.011133,-0.006628,-0.009971,0.999887,-0.005252,-0.014073,-0.000532,0.054207,-0.017569,-0.001821
0.340000,0.040000,-0.080000,-0.022084,0.380345,-1.503996,-0.008166,-0.000713,-0.992867,-0.011133,-0.006628,-0.009971,0.999887,-0.005252,-0.014073,-0.000532,0.054207,-0.017569,-0.001821
0.340000,0.040000,-0.080000,-0.022084,0.380345,-1.503996,-0.016223,0.003492,-0.985251,0.005913,-0.012116,-0.009036,0.999866,-0.005697,-0.015328,-0.000660,0.057385,-0.020877,-0.003112
0.340000,0.040000,-0.080000,-0.022084,0.380345,-1.503996,-0.016223,0.003492,-0.985251,0.005913,-0.012116,-0.009036,0.999866,-0.005697,-0.015328,-0.000660,0.057385,-0.020877,-0.003112
0.260000,-0.100000,-0.010000,-0.026296,0.381535,-1.505318,-0.016223,0.003492,-0.985251,0.005913,-0.012116,-0.009036,0.999866,-0.005697,-0.015328,-0.000660,0.057385,-0.020877,-0.003112
0.260000,-0.100000,-0.010000,-0.026296,0.381535,-1.505318,-0.014585,-0.004894,-0.990782,-0.020790,0.021547,0.007435,0.999862,-0.006184,-0.015395,-0.000451,0.062844,-0.021938,0.004747
0.260000,-0.100000,-0.010000,-0.026296,0.381535,-1.505318,-0.014585,-0.004894,-0.990782,-0.020790,0.021547,0.007435,0.999862,-0.006184,-0.015395,-0.000451,0.062844,-0.021938,0.004747
0.260000,-0.100000,-0.010000,-0.026296,0.381535,-1.505318,-0.004910,0.007174,-0.999188,-0.026582,-0.006281,-0.010251,0.999871,-0.006778,-0.014568,-0.000299,0.062268,-0.026049,0.006619
0.240000,-0.230000,0.130000,-0.031510,0.380414,-1.502423,-0.004910,0.007174,-0.999188,-0.026582,-0.006281,-0.010251,0.999871,-0.006778,-0.014568,-0.000299,0.062268,-0.026049,0.006619
0.240000,-0.230000,0.130000,-0.031510,0.380414,-1.502423,-0.032034,0.015336,-0.999642,0.016733,-0.021053,0.009753,0.999873,-0.005959,-0.014778,-0.000293,0.060078,-0.032129,0.008575
0.240000,-0.230000,0.130000,-0.031510,0.380414,-1.502423,-0.032034,0.015336,-0.999642,0.016733,-0.021053,0.009753,0.999873,-0.005959,-0.014778,-0.000293,0.060078,-0.032129,0.008575
0.270000,-0.310000,0.240000,-0.035191,0.376996,-1.496241,-0.032034,0.015336,-0.999642,0.016733,-0.021053,0.009753,0.999873,-0.005959,-0.014778,-0.000293,0.060078,-0.032129,0.008575
0.270000,-0.310000,0.240000,-0.035191,0.376996,-1.496241,-0.009383,-0.006022,-0.993114,0.022535,-0.016004,0.003177,0.999870,-0.004789,-0.015420,-0.000190,0.073240,-0.035788,0.015114
0.270000,-0.310000,0.240000,-0.035191,0.376996,-1.496241,-0.009383,-0.006022,-0.993114,0.022535,-0.016004,0.003177,0.999870,-0.004789,-0.015420,-0.000190,0.073240,-0.035788,0.015114
0.270000,-0.310000,0.240000,-0.035191,0.376996,-1.496241,-0.009383,-0.006022,-0.993114,0.022535,-0.016004,0.003177,0.999870,-0.004789,-0.015420,-0.000190,0.073240,-0.035788,0.015114
0.270000,-0.310000,0.240000,-0.035191,0.376996,-1.496241,-0.023278,-0.008103,-1.002628,0.034652,0.043502,0.006268,0.999916,-0.002928,-0.012520,0.001791,0.084500,-0.038884,0.021494
0.270000,-0.310000,0.240000,-0.035191,0.376996,-1.496241,-0.023278,-0.008103,-1.002628,0.034652,0.043502,0.006268,0.999916,-0.002928,-0.012520,0.001791,0.084500,-0.038884,0.021494
0.270000,-0.310000,0.240000,-0.035191,0.376996,-1.496241,-0.021196,0.003736,-0.990021,-0.035830,0.012473,-0.016068,0.999923,-0.005074,-0.011272,0.001038,0.087815,-0.024819,0.020648
0.530000,-0.150000,0.030000,-0.026863,0.378119,-1.480973,-0.021196,0.003736,-0.990021,-0.035830,0.012473,-0.016068,0.999923,-0.005074,-0.011272,0.001038,0.087815,-0.024819,0.020648
0.530000,-0.150000,0.030000,-0.026863,0.378119,-1.480973,-0.005712,-0.001079,-1.000880,-0.037692,-0.000034,-0.007599,0.999924,-0.007074,-0.010128,-0.000214,0.078252,-0.024666,0.011252
0.530000,-0.150000,0.030000,-0.026863,0.378119,-1.480973,-0.005712,-0.001079,-1.000880,-0.037692,-0.000034,-0.007599,0.999924,-0.007074,-0.010128,-0.000214,0.078252,-0.024666,0.011252
0.530000,-0.150000,0.030000,-0.026863,0.378119,-1.480973,-0.006364,-0.013676,-0.995553,0.012629,-0.018914,-0.011826,0.999920,-0.006592,-0.010744,-0.000462,0.070525,-0.032695,0.006054
0.470000,-0.250000,0.000000,-0.022115,0.377767,-1.480436,-0.006364,-0.013676,-0.995553,0.012629,-0.018914,-0.011826,0.999920,-0.006592,-0.010744,-0.000462,0.070525,-0.032695,0.006054
0.470000,-0.250000,0.000000,-0.022115,0.377767,-1.480436,0.017444,-0.017718,-0.993655,0.005334,0.018490,0.002648,0.999902,-0.004431,-0.013260,-0.000845,0.070143,-0.034032,-0.001096
0.470000,-0.250000,0.000000,-0.022115,0.377767,-1.480436,0.017444,-0.017718,-0.993655,0.005334,0.018490,0.002648,0.999902,-0.004431,-0.013260,-0.000845,0.070143,-0.034032,-0.001096
0.470000,-0.250000,0.000000,-0.022115,0.377767,-1.480436,-0.033565,0.011948,-0.986454,-0.002976,-0.020111,0.001415,0.999880,-0.006404,-0.014097,-0.000920,0.063625,-0.029538,0.000625
0.470000,-0.250000,0.000000,-0.022115,0.377767,-1.480436,-0.033565,0.011948,-0.986454,-0.002976,-0.020111,0.001415,0.999880,-0.006404,-0.014097,-0.000920,0.063625,-0.029538,0.000625
0.470000,-0.250000,0.000000,-0.022115,0.377767,-1.480436,-0.000586,-0.000315,-0.991548,0.011012,-0.002794,0.011679,0.999896,-0.003768,-0.013887,-0.000804,0.057159,-0.033254,0.007660
0.440000,-0.100000,0.080000,-0.021478,0.372381,-1.479005,-0.000586,-0.000315,-0.991548,0.011012,-0.002794,0.011679,0.999896,-0.003768,-0.013887,-0.000804,0.057159,-0.033254,0.007660
0.440000,-0.100000,0.080000,-0.021478,0.372381,-1.479005,-0.000586,-0.000315,-0.991548,0.011012,-0.002794,0.011679,0.999896,-0.003768,-0.013887,-0.000804,0.057159,-0.033254,0.007660
0.440000,-0.100000,0.080000,-0.021478,0.372381,-1.479005,-0.000586,-0.000315,-0.991548,0.011012,-0.002794,0.011679,0.999896,-0.003768,-0.013887,-0.000804,0.057159,-0.033254,0.007660
0.440000,-0.100000,0.080000,-0.021478,0.372381,-1.479005,-0.000586,-0.000315,-0.991548,0.011012,-0.002794,0.011679,0.999896,-0.003768,-0.013887,-0.000804,0.057159,-0.033254,0.007660
0.440000,-0.100000,0.080000,-0.021478,0.372381,-1.479005,-0.014756,0.006138,-0.995713,0.009257,-0.039061,0.000848,0.999923,-0.005022,-0.011350,-0.000007,0.053920,-0.027030,0.004942
0.440000,-0.100000,0.080000,-0.021478,0.372381,-1.479005,-0.014756,0.006138,-0.995713,0.009257,-0.039061,0.000848,0.999923,-0.005022,-0.011350,-0.000007,0.053920,-0.027030,0.004942
0.440000,-0.100000,0.080000,-0.021478,0.372381,-1.479005,-0.025821,0.009970,-1.018630,-0.014753,0.004087,0.008733,0.999892,-0.004351,-0.014053,0.000586,0.048151,-0.027405,0.010300
0.440000,-0.100000,0.080000,-0.021478,0.372381,-1.479005,-0.025821,0.009970,-1.018630,-0.014753,0.004087,0.008733,0.999892,-0.004351,-0.014053,0.000586,0.048151,-0.027405,0.010300
0.440000,-0.100000,0.080000,-0.021478,0.372381,-1.479005,0.002001,-0.009952,-1.007321,-0.004339,0.000114,-0.013516,0.999886,-0.005078,-0.014198,0.000607,0.048423,-0.024404,0.002107
0.440000,-0.100000,0.080000,-0.021478,0.372381,-1.479005,-0.015599,0.005512,-0.991130,0.005397,0.015556,-0.003196,0.999889,-0.005486,-0.013823,0.000286,0.052603,-0.029640,0.001312
0.440000,-0.100000,0.080000,-0.021478,0.372381,-1.479005,-0.015599,0.005512,-0.991130,0.005397,0.015556,-0.003196,0.999889,-0.005486,-0.013823,0.000286,0.052603,-0.029640,0.001312
0.340000,-0.100000,-0.060000,-0.021426,0.379646,-1.488987,-0.015599,0.005512,-0.991130,0.005397,0.015556,-0.003196,0.999889,-0.005486,-0.013823,0.000286,0.052603,-0.029640,0.001312
0.340000,-0.100000,-0.060000,-0.021426,0.379646,-1.488987,-0.031148,0.015879,-0.989943,-0.026504,0.016407,-0.020092,0.999896,-0.006035,-0.013087,-0.000748,0.053209,-0.018602,0.000552
0.370000,-0.070000,-0.080000,-0.021240,0.382314,-1.492875,-0.031148,0.015879,-0.989943,-0.026504,0.016407,-0.020092,0.999896,-0.006035,-0.013087,-0.000748,0.053209,-0.018602,0.000552
0.370000,-0.070000,-0.080000,-0.021240,0.382314,-1.492875,-0.035893,0.019564,-1.011513,0.007303,0.011715,0.000199,0.999895,-0.006973,-0.012626,-0.001211,0.049279,-0.025041,-0.001136
0.370000,-0.070000,-0.080000,-0.021240,0.382314,-1.492875,-0.035893,0.019564,-1.011513,0.007303,0.011715,0.000199,0.999895,-0.006973,-0.012626,-0.001211,0.049279,-0.025041,-0.001136
0.370000,-0.070000,-0.080000,-0.021240,0.382314,-1.492875,0.010061,-0.009805,-0.981003,-0.001968,-0.033215,-0.001070,0.999883,-0.006343,-0.013892,-0.001313,0.052869,-0.023685,-0.002805
0.520000,-0.130000,-0.050000,-0.015763,0.383039,-1.493718,0.010061,-0.009805,-0.981003,-0.001968,-0.033215,-0.001070,0.999883,-0.006343,-0.013892,-0.001313,0.052869,-0.023685,-0.002805
0.520000,-0.130000,-0.050000,-0.015763,0.383039,-1.493718,-0.019687,0.016385,-0.998513,-0.016113,0.012407,0.004879,0.999890,-0.006307,-0.013320,-0.001449,0.060625,-0.022061,-0.000308
0.520000,-0.130000,-0.050000,-0.015763,0.383039,-1.493718,-0.019687,0.016385,-0.998513,-0.016113,0.012407,0.004879,0.999890,-0.006307,-0.013320,-0.001449,0.060625,-0.022061,-0.000308
0.520000,-0.130000,-0.050000,-0.015763,0.383039,-1.493718,-0.014369,-0.002114,-0.965633,0.003834,0.019857,0.001326,0.999901,-0.006946,-0.012155,-0.001410,0.061472,-0.024347,-0.001093
0.520000,-0.130000,-0.050000,-0.015763,0.383039,-1.493718,-0.014369,-0.002114,-0.965633,0.003834,0.019857,0.001326,0.999901,-0.006946,-0.012155,-0.001410,0.061472,-0.024347,-0.001093
0.330000,-0.300000,0.140000,-0.016872,0.379405,-1.487633,-0.014369,-0.002114,-0.965633,0.003834,0.019857,0.001326,0.999901,-0.006946,-0.012155,-0.001410,0.061472,-0.024347,-0.001093
0.330000,-0.300000,0.140000,-0.016872,0.379405,-1.487633,-0.019114,-0.009266,-0.984883,0.002604,0.022995,0.004743,0.999919,-0.006418,-0.010856,-0.001417,0.070699,-0.029925,0.005925
0.330000,-0.300000,0.140000,-0.016872,0.379405,-1.487633,-0.019114,-0.009266,-0.984883,0.002604,0.022995,0.004743,0.999919,-0.006418,-0.010856,-0.001417,0.070699,-0.029925,0.005925
0.330000,-0.300000,0.140000,-0.016872,0.379405,-1.487633,-0.036027,0.017097,-1.021871,-0.016691,-0.000027,0.001137,0.999937,-0.006461,-0.009063,-0.001328,0.055923,-0.033355,0.008599
0.170000,-0.320000,0.190000,-0.019149,0.376379,-1.483745,-0.036027,0.017097,-1.021871,-0.016691,-0.000027,0.001137,0.999937,-0.006461,-0.009063,-0.001328,0.055923,-0.033355,0.008599
0.170000,-0.320000,0.190000,-0.019149,0.376379,-1.483745,-0.025555,0.011000,-1.011777,0.015784,-0.045069,0.007761,0.999923,-0.006811,-0.010251,-0.001327,0.039887,-0.041784,0.015795
0.170000,-0.320000,0.190000,-0.019149,0.376379,-1.483745,-0.025555,0.011000,-1.011777,0.015784,-0.045069,0.007761,0.999923,-0.006811,-0.010251,-0.001327,0.039887,-0.041784,0.015795
0.170000,-0.320000,0.190000,-0.019149,0.376379,-1.483745,-0.024479,0.001597,-0.992244,-0.003778,-0.034450,-0.008282,0.999893,-0.004803,-0.013772,-0.001157,0.030940,-0.041565,0.016598
0.170000,-0.350000,0.210000,-0.020603,0.371768,-1.478201,-0.024479,0.001597,-0.992244,-0.003778,-0.034450,-0.008282,0.999893,-0.004803,-0.013772,-0.001157,0.030940,-0.041565,0.016598
0.170000,-0.350000,0.210000,-0.020603,0.371768,-1.478201,-0.024940,0.014317,-1.006165,0.029820,-0.000545,-0.014112,0.999856,-0.003733,-0.016505,-0.001195,0.034573,-0.046384,0.018232
0.170000,-0.350000,0.210000,-0.020603,0.371768,-1.478201,-0.024940,0.014317,-1.006165,0.029820,-0.000545,-0.014112,0.999856,-0.003733,-0.016505,-0.001195,0.034573,-0.046384,0.018232
0.170000,-0.350000,0.210000,-0.020603,0.371768,-1.478201,-0.017788,0.017563,-0.999457,-0.041410,0.017076,0.009275,0.999862,-0.003226,-0.016272,-0.001039,0.040535,-0.037975,0.014807
0.360000,-0.240000,0.130000,-0.020366,0.368963,-1.476909,-0.017788,0.017563,-0.999457,-0.041410,0.017076,0.009275,0.999862,-0.003226,-0.016272,-0.001039,0.040535,-0.037975,0.014807
0.360000,-0.240000,0.130000,-0.020366,0.368963,-1.476909,-0.006878,-0.003447,-0.997888,-0.010572,-0.029202,-0.000766,0.999868,-0.003852,-0.015734,-0.000870,0.043574,-0.036252,0.015782
0.360000,-0.240000,0.130000,-0.020366,0.368963,-1.476909,-0.006878,-0.003447,-0.997888,-0.010572,-0.029202,-0.000766,0.999868,-0.003852,-0.015734,-0.000870,0.043574,-0.036252,0.015782
0.360000,-0.240000,0.130000,-0.020366,0.368963,-1.476909,-0.004979,0.009343,-1.002312,0.007108,0.002792,0.012309,0.999872,-0.003857,-0.015496,-0.000401,0.051207,-0.033105,0.011242
0.290000,-0.260000,-0.010000,-0.025335,0.365934,-1.480615,-0.004979,0.009343,-1.002312,0.007108,0.002792,0.012309,0.999872,-0.003857,-0.015496,-0.000401,0.051207,-0.033105,0.011242
0.290000,-0.260000,-0.010000,-0.025335,0.365934,-1.480615,-0.010379,-0.008841,-1.001675,-0.001400,0.046946,0.004137,0.999895,-0.003470,-0.014086,0.000199,0.043715,-0.042178,0.009497
0.290000,-0.260000,-0.010000,-0.025335,0.365934,-1.480615,-0.010379,-0.008841,-1.001675,-0.001400,0.046946,0.004137,0.999895,-0.003470,-0.014086,0.000199,0.043715,-0.042178,0.009497
0.290000,-0.260000,-0.010000,-0.025335,0.365934,-1.480615,-0.007512,-0.006048,-0.991013,0.044974,-0.029231,-0.007682,0.999879,-0.001688,-0.015453,0.000376,0.047800,-0.041987,-0.006979
0.290000,-0.260000,-0.010000,-0.025335,0.365934,-1.480615,-0.007512,-0.006048,-0.991013,0.044974,-0.029231,-0.007682,0.999879,-0.001688,-0.015453,0.000376,0.047800,-0.041987,-0.006979
0.490000,-0.140000,-0.220000,-0.019447,0.367526,-1.484515,-0.007512,-0.006048,-0.991013,0.044974,-0.029231,-0.007682,0.999879,-0.001688,-0.015453,0.000376,0.047800,-0.041987,-0.006979
0.490000,-0.140000,-0.220000,-0.019447,0.367526,-1.484515,-0.024768,0.009018,-0.999083,-0.007726,0.020453,-0.004156,0.999882,-0.000534,-0.015365,0.000050,0.054663,-0.040839,-0.007628
0.490000,-0.140000,-0.220000,-0.019447,0.367526,-1.484515,-0.024768,0.009018,-0.999083,-0.007726,0.020453,-0.004156,0.999882,-0.000534,-0.015365,0.000050,0.054663,-0.040839,-0.007628
0.490000,-0.140000,-0.220000,-0.019447,0.367526,-1.484515,-0.024285,-0.011836,-0.997964,-0.016662,-0.042263,-0.016385,0.999886,-0.000040,-0.015097,-0.000328,0.058702,-0.035807,0.008053
0.290000,-0.230000,0.040000,-0.021607,0.363885,-1.484779,-0.024285,-0.011836,-0.997964,-0.016662,-0.042263,-0.016385,0.999886,-0.000040,-0.015097,-0.000328,0.058702,-0.035807,0.008053
0.290000,-0.230000,0.040000,-0.021607,0.363885,-1.484779,-0.017896,-0.000520,-0.994174,-0.072259,0.015907,-0.006658,0.999886,-0.001157,-0.015014,-0.000579,0.061201,-0.032807,-0.001743
0.290000,-0.230000,0.040000,-0.021607,0.363885,-1.484779,-0.017896,-0.000520,-0.994174,-0.072259,0.015907,-0.006658,0.999886,-0.001157,-0.015014,-0.000579,0.061201,-0.032807,-0.001743
0.290000,-0.230000,0.040000,-0.021607,0.363885,-1.484779,-0.037640,0.018354,-0.991963,-0.008107,0.033437,0.000999,0.999914,-0.001971,-0.012960,-0.000016,0.054832,-0.036423,0.008158
0.450000,-0.260000,0.010000,-0.015276,0.364380,-1.487953,-0.037640,0.018354,-0.991963,-0.008107,0.033437,0.000999,0.999914,-0.001971,-0.012960,-0.000016,0.054832,-0.036423,0.008158
0.450000,-0.260000,0.010000,-0.015276,0.364380,-1.487953,-0.011986,-0.008654,-0.998359,0.015981,0.001455,0.000549,0.999913,-0.000900,-0.013147,0.000270,0.062829,-0.033202,0.004363
0.450000,-0.260000,0.010000,-0.015276,0.364380,-1.487953,-0.011986,-0.008654,-0.998359,0.015981,0.001455,0.000549,0.999913,-0.000900,-0.013147,0.000270,0.062829,-0.033202,0.004363
0.450000,-0.260000,0.010000,-0.015276,0.364380,-1.487953,-0.029969,0.015301,-1.013390,-0.013324,0.059488,0.008413,0.999937,-0.000998,-0.011145,0.000406,0.072428,-0.038393,-0.003666
0.550000,-0.220000,-0.160000,-0.012040,0.361421,-1.493341,-0.029969,0.015301,-1.013390,-0.013324,0.059488,0.008413,0.999937,-0.000998,-0.011145,0.000406,0.072428,-0.038393,-0.003666
0.550000,-0.220000,-0.160000,-0.012040,0.361421,-1.493341,-0.013497,0.001220,-0.978984,0.018978,-0.009931,0.017897,0.999951,-0.000023,-0.009836,0.000821,0.064706,-0.037101,0.001731
0.550000,-0.220000,-0.160000,-0.012040,0.361421,-1.493341,-0.013497,0.001220,-0.978984,0.018978,-0.009931,0.017897,0.999951,-0.000023,-0.009836,0.000821,0.064706,-0.037101,0.001731
0.550000,-0.220000,-0.160000,-0.012040,0.361421,-1.493341,-0.033335,0.008914,-0.990034,-0.029272,-0.032309,-0.000910,0.999943,-0.000452,-0.010624,0.000781,0.057199,-0.027596,0.010454
0.320000,-0.220000,0.040000,-0.010473,0.359226,-1.493000,-0.033335,0.008914,-0.990034,-0.029272,-0.032309,-0.000910,0.999943,-0.000452,-0.010624,0.000781,0.057199,-0.027596,0.010454
0.320000,-0.220000,0.040000,-0.010473,0.359226,-1.493000,-0.006108,-0.008800,-1.005374,-0.026611,-0.035582,-0.002946,0.999932,-0.000827,-0.011606,0.000667,0.054405,-0.030854,0.000858
0.320000,-0.220000,0.040000,-0.010473,0.359226,-1.493000,-0.006108,-0.008800,-1.005374,-0.026611,-0.035582,-0.002946,0.999932,-0.000827,-0.011606,0.000667,0.054405,-0.030854,0.000858
0.320000,-0.220000,0.040000,-0.010473,0.359226,-1.493000,-0.007565,-0.009276,-0.991416,-0.017508,0.078037,-0.009390,0.999938,-0.000546,-0.011145,0.000636,0.062916,-0.028713,0.001556
0.320000,-0.220000,0.040000,-0.010473,0.359226,-1.493000,-0.007565,-0.009276,-0.991416,-0.017508,0.078037,-0.009390,0.999938,-0.000546,-0.011145,0.000636,0.062916,-0.028713,0.001556
0.310000,-0.050000,-0.140000,-0.011306,0.360851,-1.500975,-0.007565,-0.009276,-0.991416,-0.017508,0.078037,-0.009390,0.999938,-0.000546,-0.011145,0.000636,0.062916,-0.028713,0.001556
0.310000,-0.050000,-0.140000,-0.011306,0.360851,-1.500975,-0.028426,0.005106,-0.990953,-0.021343,0.005455,-0.002107,0.999955,-0.001419,-0.009341,0.000590,0.044247,-0.026635,0.005675
0.310000,-0.050000,-0.140000,-0.011306,0.360851,-1.500975,-0.028426,0.005106,-0.990953,-0.021343,0.005455,-0.002107,0.999955,-0.001419,-0.009341,0.000590,0.044247,-0.026635,0.005675
0.310000,-0.050000,-0.140000,-0.011306,0.360851,-1.500975,-0.006462,-0.021816,-0.989713,-0.002937,-0.109450,-0.013199,0.999914,-0.001847,-0.012946,0.000290,0.032820,-0.029514,0.001058
0.120000,-0.160000,-0.280000,-0.017802,0.360494,-1.509833,-0.006462,-0.021816,-0.989713,-0.002937,-0.109450,-0.013199,0.999914,-0.001847,-0.012946,0.000290,0.032820,-0.029514,0.001058
0.120000,-0.160000,-0.280000,-0.017802,0.360494,-1.509833,-0.021007,0.008375,-0.971110,0.015829,0.045137,-0.005492,0.999900,-0.000073,-0.014136,0.000161,0.042786,-0.033783,-0.001054
0.120000,-0.160000,-0.280000,-0.017802,0.360494,-1.509833,-0.021007,0.008375,-0.971110,0.015829,0.045137,-0.005492,0.999900,-0.000073,-0.014136,0.000161,0.042786,-0.033783,-0.001054
0.120000,-0.160000,-0.280000,-0.017802,0.360494,-1.509833,-0.017282,-0.020008,-0.996099,-0.051126,-0.014069,-0.010848,0.999915,-0.000089,-0.013054,0.000046,0.029377,-0.023152,0.000249
0.000000,0.000000,0.010000,0.016152,0.011978,-0.004545,-0.017282,-0.020008,-0.996099,-0.051126,-0.014069,-0.010848,0.999915,-0.000089,-0.013054,0.000046,0.029377,-0.023152,0.000249
0.000000,0.000000,0.010000,0.016152,0.011978,-0.004545,-0.004946,-0.022131,-1.002506,0.001964,-0.077978,-0.007904,0.999848,-0.001726,-0.017332,-0.000481,0.031363,-0.027757,-0.009284
0.000000,0.000000,0.010000,0.016152,0.011978,-0.004545,-0.004946,-0.022131,-1.002506,0.001964,-0.077978,-0.007904,0.999848,-0.001726,-0.017332,-0.000481,0.031363,-0.027757,-0.009284
0.000000,0.000000,0.010000,0.016152,0.011978,-0.004545,-0.017969,-0.013526,-0.988664,0.010236,0.017128,-0.000306,0.999835,-0.001076,-0.018117,-0.000497,0.051190,-0.043049,-0.007424
0.000000,0.000000,0.000000,0.016178,0.011976,-0.004456,-0.017969,-0.013526,-0.988664,0.010236,0.017128,-0.000306,0.999835,-0.001076,-0.018117,-0.000497,0.051190,-0.043049,-0.007424
0.000000,0.000000,0.000000,0.016178,0.011976,-0.004456,-0.024589,-0.008734,-0.984625,0.040636,0.100246,0.009068,0.999894,0.001596,-0.014480,-0.000360,0.064467,-0.049603,0.003317
0.000000,0.000000,0.000000,0.016178,0.011976,-0.004456,-0.024589,-0.008734,-0.984625,0.040636,0.100246,0.009068,0.999894,0.001596,-0.014480,-0.000360,0.064467,-0.049603,0.003317
0.000000,0.000000,0.000000,0.016178,0.011976,-0.004456,-0.009794,-0.020694,-0.987110,0.032008,0.019093,0.009167,0.999926,0.003568,-0.011632,-0.000042,0.065990,-0.050095,0.009784
0.420000,-0.290000,-0.040000,-0.012118,0.353079,-1.526111,-0.009794,-0.020694,-0.987110,0.032008,0.019093,0.009167,0.999926,0.003568,-0.011632,-0.000042,0.065990,-0.050095,0.009784
0.420000,-0.290000,-0.040000,-0.012118,0.353079,-1.526111,-0.015418,-0.008897,-1.005668,-0.008701,0.055351,0.004300,0.999943,0.004635,-0.009625,0.000090,0.076883,-0.051321,0.006790
0.420000,-0.290000,-0.040000,-0.012118,0.353079,-1.526111,-0.015418,-0.008897,-1.005668,-0.008701,0.055351,0.004300,0.999943,0.004635,-0.009625,0.000090,0.076883,-0.051321,0.006790
0.420000,-0.290000,-0.040000,-0.012118,0.353079,-1.526111,-0.038076,0.008022,-0.977946,-0.007599,0.014703,0.008204,0.999960,0.005461,-0.007134,0.000231,0.053228,-0.030688,-0.000023
0.420000,-0.290000,-0.040000,-0.012118,0.353079,-1.526111,-0.038076,0.008022,-0.977946,-0.007599,0.014703,0.008204,0.999960,0.005461,-0.007134,0.000231,0.053228,-0.030688,-0.000023
0.000000,0.000000,0.000000,0.016068,0.012057,-0.004632,-0.038076,0.008022,-0.977946,-0.007599,0.014703,0.008204,0.999960,0.005461,-0.007134,0.000231,0.053228,-0.030688,-0.000023
0.000000,0.000000,0.000000,0.016068,0.012057,-0.004632,-0.030616,0.019595,-1.016754,-0.092249,-0.119604,0.000402,0.999939,0.002531,-0.010716,0.000258,0.041851,-0.020964,0.009216
0.000000,0.000000,0.000000,0.016068,0.012057,-0.004632,-0.030616,0.019595,-1.016754,-0.092249,-0.119604,0.000402,0.999939,0.002531,-0.010716,0.000258,0.041851,-0.020964,0.009216
0.000000,0.000000,0.000000,0.016068,0.012057,-0.004632,-0.019294,0.011179,-0.961903,-0.023584,0.067698,0.002703,0.999928,0.001383,-0.011883,0.000473,0.051180,-0.018115,0.012031
0.260000,0.000000,0.140000,-0.006793,0.352078,-1.525665,-0.019294,0.011179,-0.961903,-0.023584,0.067698,0.002703,0.999928,0.001383,-0.011883,0.000473,0.051180,-0.018115,0.012031
0.260000,0.000000,0.140000,-0.006793,0.352078,-1.525665,-0.006670,-0.003880,-0.988119,-0.003124,0.051780,0.006848,0.999960,0.000440,-0.008918,0.000504,0.053085,-0.016483,0.013700
0.260000,0.000000,0.140000,-0.006793,0.352078,-1.525665,-0.006670,-0.003880,-0.988119,-0.003124,0.051780,0.006848,0.999960,0.000440,-0.008918,0.000504,0.053085,-0.016483,0.013700
0.260000,0.000000,0.140000,-0.006793,0.352078,-1.525665,-0.010276,-0.002943,-0.992647,-0.060910,-0.028054,-0.002070,0.999962,0.000295,-0.008647,0.000636,0.033509,-0.000282,0.014093
0.290000,0.110000,0.290000,-0.002223,0.356972,-1.517676,-0.010276,-0.002943,-0.992647,-0.060910,-0.028054,-0.002070,0.999962,0.000295,-0.008647,0.000636,0.033509,-0.000282,0.014093
0.290000,0.110000,0.290000,-0.002223,0.356972,-1.517676,-0.017614,-0.013680,-0.978790,-0.025744,-0.018183,-0.000615,0.999934,-0.002219,-0.011294,0.000522,0.038711,-0.008823,0.012724
0.290000,0.110000,0.290000,-0.002223,0.356972,-1.517676,-0.017614,-0.013680,-0.978790,-0.025744,-0.018183,-0.000615,0.999934,-0.002219,-0.011294,0.000522,0.038711,-0.008823,0.012724
0.290000,0.110000,0.290000,-0.002223,0.356972,-1.517676,-0.021782,0.010182,-1.005354,-0.011144,0.014758,-0.009217,0.999939,-0.000727,-0.011024,0.000475,0.038594,-0.008455,0.019395
0.000000,0.000000,0.000000,0.016106,0.011993,-0.004668,-0.021782,0.010182,-1.005354,-0.011144,0.014758,-0.009217,0.999939,-0.000727,-0.011024,0.000475,0.038594,-0.008455,0.019395
0.000000,0.000000,0.000000,0.016106,0.011993,-0.004668,-0.029396,0.016647,-1.007112,-0.017207,0.030210,-0.000621,0.999942,-0.001566,-0.010621,-0.000070,0.039772,-0.013164,0.024132
0.000000,0.000000,0.000000,0.016106,0.011993,-0.004668,-0.029396,0.016647,-1.007112,-0.017207,0.030210,-0.000621,0.999942,-0.001566,-0.010621,-0.000070,0.039772,-0.013164,0.024132
0.000000,0.000000,0.000000,0.016106,0.011993,-0.004668,-0.022103,0.012668,-0.997756,0.019125,-0.012869,-0.001362,0.999951,-0.001545,-0.009822,0.000128,0.037211,-0.016741,0.011610
0.000000,0.000000,0.000000,0.016092,0.011996,-0.004705,-0.022103,0.012668,-0.997756,0.019125,-0.012869,-0.001362,0.999951,-0.001545,-0.009822,0.000128,0.037211,-0.016741,0.011610
0.000000,0.000000,0.000000,0.016092,0.011996,-0.004705,-0.004577,-0.000207,-1.003460,0.026823,0.038357,-0.001794,0.999951,-0.000875,-0.009850,0.000359,0.042546,-0.024372,0.013098
0.000000,0.000000,0.000000,0.016092,0.011996,-0.004705,-0.004577,-0.000207,-1.003460,0.026823,0.038357,-0.001794,0.999951,-0.000875,-0.009850,0.000359,0.042546,-0.024372,0.013098
0.000000,0.000000,0.000000,0.016092,0.011996,-0.004705,-0.027853,0.001865,-1.015205,0.024898,0.082973,-0.005634,0.999977,0.001017,-0.006660,0.000210,0.049604,-0.030872,0.015818
0.000000,0.000000,0.000000,0.016092,0.011996,-0.004705,-0.027853,0.001865,-1.015205,0.024898,0.082973,-0.005634,0.999977,0.001017,-0.006660,0.000210,0.049604,-0.030872,0.015818
0.000000,0.000000,0.000000,0.016050,0.012020,-0.004787,-0.027853,0.001865,-1.015205,0.024898,0.082973,-0.005634,0.999977,0.001017,-0.006660,0.000210,0.049604,-0.030872,0.015818
0.000000,0.000000,0.000000,0.016050,0.012020,-0.004787,-0.022856,0.001682,-1.003604,0.053769,0.042825,0.008576,0.999984,0.003499,-0.004460,-0.000044,0.045196,-0.036476,0.011484
0.000000,0.000000,0.000000,0.016050,0.012020,-0.004787,-0.022856,0.001682,-1.003604,0.053769,0.042825,0.008576,0.999984,0.003499,-0.004460,-0.000044,0.045196,-0.036476,0.011484
0.000000,0.000000,0.000000,0.016050,0.012020,-0.004787,-0.022762,-0.011751,-0.988339,0.003698,-0.043261,-0.003941,0.999971,0.005423,-0.005328,-0.000421,0.039069,-0.038618,0.010055
0.000000,0.000000,0.000000,0.016050,0.012020,-0.004787,-0.022762,-0.011751,-0.988339,0.003698,-0.043261,-0.003941,0.999971,0.005423,-0.005328,-0.000421,0.039069,-0.038618,0.010055
0.000000,0.000000,0.000000,0.016061,0.012040,-0.004698,-0.022762,-0.011751,-0.988339,0.003698,-0.043261,-0.003941,0.999971,0.005423,-0.005328,-0.000421,0.039069,-0.038618,0.010055
0.000000,0.000000,0.000000,0.016061,0.012040,-0.004698,-0.004095,0.010263,-1.002143,0.034617,-0.037638,0.000668,0.999960,0.006566,-0.005989,-0.000219,0.023156,-0.025839,0.005757
0.000000,0.000000,0.000000,0.016061,0.012040,-0.004698,-0.004095,0.010263,-1.002143,0.034617,-0.037638,0.000668,0.999960,0.006566,-0.005989,-0.000219,0.023156,-0.025839,0.005757
0.000000,0.000000,0.000000,0.016061,0.012040,-0.004698,-0.016634,-0.008602,-0.986921,-0.052615,-0.002111,0.006150,0.999962,0.003912,-0.007787,-0.000286,0.032457,-0.026260,0.018309
-0.340000,0.420000,0.370000,0.007759,0.368562,-1.489591,-0.016634,-0.008602,-0.986921,-0.052615,-0.002111,0.006150,0.999962,0.003912,-0.007787,-0.000286,0.032457,-0.026260,0.018309
-0.340000,0.420000,0.370000,0.007759,0.368562,-1.489591,-0.006832,0.002849,-0.979627,0.056187,0.052791,-0.004907,0.999971,0.005725,-0.004934,-0.000170,0.039713,-0.023438,0.017498
-0.340000,0.420000,0.370000,0.007759,0.368562,-1.489591,-0.006832,0.002849,-0.979627,0.056187,0.052791,-0.004907,0.999971,0.005725,-0.004934,-0.000170,0.039713,-0.023438,0.017498
-0.340000,0.420000,0.370000,0.007759,0.368562,-1.489591,0.005033,-0.014558,-1.013354,-0.119924,-0.051667,0.013754,0.999987,0.004351,-0.002704,-0.000101,-0.009186,0.032951,0.028526
-0.230000,0.580000,0.310000,0.001374,0.381317,-1.483553,0.005033,-0.014558,-1.013354,-0.119924,-0.051667,0.013754,0.999987,0.004351,-0.002704,-0.000101,-0.009186,0.032951,0.028526
-0.230000,0.580000,0.310000,0.001374,0.381317,-1.483553,-0.004073,-0.029988,-0.998266,-0.181520,-0.098732,-0.014050,0.999912,-0.005158,-0.012199,-0.000091,0.007111,0.021647,0.028954
-0.230000,0.580000,0.310000,0.001374,0.381317,-1.483553,-0.004073,-0.029988,-0.998266,-0.181520,-0.098732,-0.014050,0.999912,-0.005158,-0.012199,-0.000091,0.007111,0.021647,0.028954
-0.230000,0.580000,0.310000,0.001374,0.381317,-1.483553,-0.022368,0.011802,-0.982186,0.091488,0.080068,-0.011347,0.999948,-0.003843,-0.009463,-0.000256,0.014247,0.007838,0.009806
-0.150000,0.240000,0.280000,-0.007326,0.389523,-1.474727,-0.022368,0.011802,-0.982186,0.091488,0.080068,-0.011347,0.999948,-0.003843,-0.009463,-0.000256,0.014247,0.007838,0.009806
-0.150000,0.240000,0.280000,-0.007326,0.389523,-1.474727,0.005382,-0.004765,-0.986259,-0.019539,-0.009455,-0.001896,0.999956,-0.003074,-0.008899,-0.000523,0.009105,0.009066,0.008957
-0.150000,0.240000,0.280000,-0.007326,0.389523,-1.474727,0.005382,-0.004765,-0.986259,-0.019539,-0.009455,-0.001896,0.999956,-0.003074,-0.008899,-0.000523,0.009105,0.009066,0.008957
-0.150000,0.240000,0.280000,-0.007326,0.389523,-1.474727,-0.035461,0.009226,-1.010212,0.018102,-0.043493,0.011834,0.999963,-0.001944,-0.008304,-0.000756,0.001530,-0.003325,0.013878
-0.150000,0.240000,0.280000,-0.007326,0.389523,-1.474727,-0.035461,0.009226,-1.010212,0.018102,-0.043493,0.011834,0.999963,-0.001944,-0.008304,-0.000756,0.001530,-0.003325,0.013878
-0.340000,0.180000,0.250000,-0.019270,0.398491,-1.466048,-0.035461,0.009226,-1.010212,0.018102,-0.043493,0.011834,0.999963,-0.001944,-0.008304,-0.000756,0.001530,-0.003325,0.013878
-0.340000,0.180000,0.250000,-0.019270,0.398491,-1.466048,0.002611,-0.005017,-1.003213,-0.065518,-0.111473,0.001426,0.999934,-0.001084,-0.011443,-0.000814,-0.008340,0.001808,-0.000268
-0.340000,0.180000,0.250000,-0.019270,0.398491,-1.466048,0.002611,-0.005017,-1.003213,-0.065518,-0.111473,0.001426,0.999934,-0.001084,-0.011443,-0.000814,-0.008340,0.001808,-0.000268
-0.340000,0.180000,0.250000,-0.019270,0.398491,-1.466048,-0.035966,0.004202,-0.987322,-0.029092,-0.005690,0.018952,0.999908,-0.003536,-0.013058,-0.000452,-0.005355,-0.006872,0.004526
-0.290000,0.210000,0.200000,-0.029471,0.410181,-1.461941,-0.035966,0.004202,-0.987322,-0.029092,-0.005690,0.018952,0.999908,-0.003536,-0.013058,-0.000452,-0.005355,-0.006872,0.004526
-0.290000,0.210000,0.200000,-0.029471,0.410181,-1.461941,-0.028254,0.010140,-0.973717,-0.009600,-0.059579,0.021255,0.999888,-0.002071,-0.014798,-0.000143,-0.014093,0.005819,0.006094
-0.290000,0.210000,0.200000,-0.029471,0.410181,-1.461941,-0.028254,0.010140,-0.973717,-0.009600,-0.059579,0.021255,0.999888,-0.002071,-0.014798,-0.000143,-0.014093,0.005819,0.006094
-0.290000,0.210000,0.200000,-0.029471,0.410181,-1.461941,-0.020151,0.007513,-0.985891,-0.067452,-0.006640,0.016381,0.999865,-0.003494,-0.016033,0.000454,-0.002032,0.003488,0.013099
-0.120000,0.180000,0.200000,-0.040618,0.418316,-1.457422,-0.020151,0.007513,-0.985891,-0.067452,-0.006640,0.016381,0.999865,-0.003494,-0.016033,0.000454,-0.002032,0.003488,0.013099
-0.120000,0.180000,0.200000,-0.040618,0.418316,-1.457422,-0.032584,-0.002793,-0.984861,-0.016993,-0.002124,0.008264,0.999875,-0.004853,-0.015036,0.000828,0.009626,-0.001593,0.008287
-0.120000,0.180000,0.200000,-0.040618,0.418316,-1.457422,-0.032584,-0.002793,-0.984861,-0.016993,-0.002124,0.008264,0.999875,-0.004853,-0.015036,0.000828,0.009626,-0.001593,0.008287
-0.120000,0.180000,0.200000,-0.040618,0.418316,-1.457422,-0.012658,0.001334,-1.018170,0.007150,-0.019411,-0.003520,0.999886,-0.003882,-0.014592,0.000924,0.012961,-0.011157,0.004796
0.040000,-0.030000,0.030000,-0.045633,0.421714,-1.453779,-0.012658,0.001334,-1.018170,0.007150,-0.019411,-0.003520,0.999886,-0.003882,-0.014592,0.000924,0.012961,-0.011157,0.004796
0.040000,-0.030000,0.030000,-0.045633,0.421714,-1.453779,-0.017975,0.003370,-1.000375,-0.027841,0.005750,0.007825,0.999896,-0.003300,-0.013971,0.001064,0.021540,-0.015839,-0.002178
0.040000,-0.030000,0.030000,-0.045633,0.421714,-1.453779,-0.017975,0.003370,-1.000375,-0.027841,0.005750,0.007825,0.999896,-0.003300,-0.013971,0.001064,0.021540,-0.015839,-0.002178
0.040000,-0.030000,0.030000,-0.045633,0.421714,-1.453779,-0.021153,0.010497,-1.028745,0.008408,0.002305,0.000776,0.999905,-0.002890,-0.013393,0.001174,0.027374,-0.020629,0.000461
0.060000,-0.190000,-0.150000,-0.057837,0.424901,-1.462414,-0.021153,0.010497,-1.028745,0.008408,0.002305,0.000776,0.999905,-0.002890,-0.013393,0.001174,0.027374,-0.020629,0.000461
0.060000,-0.190000,-0.150000,-0.057837,0.424901,-1.462414,0.004948,-0.022526,-1.016276,-0.004096,0.010077,-0.008488,0.999940,-0.000613,-0.010850,0.001535,0.028325,-0.025694,-0.005671
0.060000,-0.190000,-0.150000,-0.057837,0.424901,-1.462414,-0.002040,-0.010551,-1.012961,-0.020984,0.003381,0.007160,0.999926,-0.001391,-0.012053,0.000849,0.028248,-0.030152,-0.018189
0.060000,-0.190000,-0.150000,-0.057837,0.424901,-1.462414,-0.002040,-0.010551,-1.012961,-0.020984,0.003381,0.007160,0.999926,-0.001391,-0.012053,0.000849,0.028248,-0.030152,-0.018189
0.060000,-0.190000,-0.150000,-0.057837,0.424901,-1.462414,-0.011356,0.007265,-1.024647,-0.003718,0.006777,-0.002353,0.999924,-0.000550,-0.012276,0.001187,0.032370,-0.039949,-0.011353
0.300000,-0.410000,-0.100000,-0.063637,0.412794,-1.474627,-0.011356,0.007265,-1.024647,-0.003718,0.006777,-0.002353,0.999924,-0.000550,-0.012276,0.001187,0.032370,-0.039949,-0.011353
0.330000,-0.270000,-0.020000,-0.063535,0.409806,-1.477652,-0.011356,0.007265,-1.024647,-0.003718,0.006777,-0.002353,0.999924,-0.000550,-0.012276,0.001187,0.032370,-0.039949,-0.011353
0.330000,-0.270000,-0.020000,-0.063535,0.409806,-1.477652,-0.018220,0.006959,-0.983050,-0.012785,-0.002451,-0.000242,0.999935,0.002322,-0.011056,0.001700,0.040791,-0.032781,-0.001210
0.330000,-0.270000,-0.020000,-0.063535,0.409806,-1.477652,-0.018220,0.006959,-0.983050,-0.012785,-0.002451,-0.000242,0.999935,0.002322,-0.011056,0.001700,0.040791,-0.032781,-0.001210
0.330000,-0.270000,-0.020000,-0.063535,0.409806,-1.477652,-0.018152,0.004650,-1.012425,-0.019822,0.028011,-0.025559,0.999932,0.001406,-0.011570,0.001054,0.043184,-0.028555,-0.004865
0.290000,-0.120000,-0.110000,-0.063367,0.411823,-1.482782,-0.018152,0.004650,-1.012425,-0.019822,0.028011,-0.025559,0.999932,0.001406,-0.011570,0.001054,0.043184,-0.028555,-0.004865
0.290000,-0.120000,-0.110000,-0.063367,0.411823,-1.482782,-0.016397,-0.002400,-1.013655,-0.009342,-0.006672,0.005318,0.999936,-0.000090,-0.011267,0.000596,0.041707,-0.028782,-0.009239
0.290000,-0.120000,-0.110000,-0.063367,0.411823,-1.482782,-0.012554,-0.000070,-1.004404,0.003108,-0.003989,0.001644,0.999944,0.000034,-0.010472,0.001269,0.042270,-0.036763,-0.008798
0.190000,-0.380000,-0.180000,-0.070203,0.398924,-1.506591,-0.012554,-0.000070,-1.004404,0.003108,-0.003989,0.001644,0.999944,0.000034,-0.010472,0.001269,0.042270,-0.036763,-0.008798
0.190000,-0.380000,-0.180000,-0.070203,0.398924,-1.506591,-0.014371,-0.018278,-0.964314,-0.013371,-0.003203,-0.003576,0.999917,0.004725,-0.011917,0.001130,0.041583,-0.031835,-0.006359
0.190000,-0.380000,-0.180000,-0.070203,0.398924,-1.506591,-0.014371,-0.018278,-0.964314,-0.013371,-0.003203,-0.003576,0.999917,0.004725,-0.011917,0.001130,0.041583,-0.031835,-0.006359
0.190000,-0.380000,-0.180000,-0.070203,0.398924,-1.506591,-0.014371,-0.018278,-0.964314,-0.013371,-0.003203,-0.003576,0.999917,0.004725,-0.011917,0.001130,0.041583,-0.031835,-0.006359
0.190000,-0.380000,-0.180000,-0.070203,0.398924,-1.506591,-0.014371,-0.018278,-0.964314,-0.013371,-0.003203,-0.003576,0.999917,0.004725,-0.011917,0.001130,0.041583,-0.031835,-0.006359
0.190000,-0.380000,-0.180000,-0.070203,0.398924,-1.506591,-0.022258,-0.023198,-0.997876,-0.053862,-0.044447,-0.008893,0.999976,-0.000883,-0.006713,-0.001169,0.047418,-0.008063,0.013483
0.190000,-0.380000,-0.180000,-0.070203,0.398924,-1.506591,-0.010794,-0.021476,-0.981305,-0.028954,0.016502,-0.013838,0.999982,0.004986,-0.003036,-0.001524,0.052507,-0.020785,0.003838
0.200000,-0.130000,0.030000,-0.062762,0.398172,-1.507614,-0.010794,-0.021476,-0.981305,-0.028954,0.016502,-0.013838,0.999982,0.004986,-0.003036,-0.001524,0.052507,-0.020785,0.003838
0.200000,-0.130000,0.030000,-0.062762,0.398172,-1.507614,-0.023468,-0.004239,-0.996142,-0.044582,-0.041730,0.010791,0.999986,0.002882,-0.004274,-0.001485,0.035847,-0.010622,0.001465
0.200000,-0.130000,0.030000,-0.062762,0.398172,-1.507614,-0.023468,-0.004239,-0.996142,-0.044582,-0.041730,0.010791,0.999986,0.002882,-0.004274,-0.001485,0.035847,-0.010622,0.001465
0.200000,-0.130000,0.030000,-0.062762,0.398172,-1.507614,-0.005450,-0.000657,-1.008249,-0.035452,-0.062497,0.001701,0.999978,0.002134,-0.006241,-0.000923,0.014601,-0.008965,0.001166
-0.060000,0.150000,-0.060000,-0.065286,0.405199,-1.513083,-0.005450,-0.000657,-1.008249,-0.035452,-0.062497,0.001701,0.999978,0.002134,-0.006241,-0.000923,0.014601,-0.008965,0.001166
-0.060000,0.150000,-0.060000,-0.065286,0.405199,-1.513083,-0.004128,-0.005332,-0.995490,-0.033096,-0.100238,-0.007062,0.999939,0.000558,-0.010960,-0.001099,-0.000517,0.000904,0.004802
-0.060000,0.150000,-0.060000,-0.065286,0.405199,-1.513083,-0.004128,-0.005332,-0.995490,-0.033096,-0.100238,-0.007062,0.999939,0.000558,-0.010960,-0.001099,-0.000517,0.000904,0.004802
-0.060000,0.150000,-0.060000,-0.065286,0.405199,-1.513083,-0.012432,0.012486,-0.996493,0.034588,0.019437,-0.000004,0.999976,-0.001063,-0.006518,-0.002124,0.042394,-0.024189,0.007480
0.250000,-0.250000,0.070000,-0.051557,0.408122,-1.518462,-0.012432,0.012486,-0.996493,0.034588,0.019437,-0.000004,0.999976,-0.001063,-0.006518,-0.002124,0.042394,-0.024189,0.007480
0.250000,-0.250000,0.070000,-0.051557,0.408122,-1.518462,-0.002078,-0.019489,-0.968668,-0.025448,-0.008543,0.005343,0.999977,0.000381,-0.006471,-0.002114,0.028064,-0.021864,0.001939
0.250000,-0.250000,0.070000,-0.051557,0.408122,-1.518462,-0.002078,-0.019489,-0.968668,-0.025448,-0.008543,0.005343,0.999977,0.000381,-0.006471,-0.002114,0.028064,-0.021864,0.001939
0.250000,-0.250000,0.070000,-0.051557,0.408122,-1.518462,-0.018345,-0.007068,-0.984070,0.010281,0.005265,0.005806,0.999973,-0.000167,-0.007051,-0.001859,0.024791,-0.026994,0.007519
0.250000,-0.250000,0.070000,-0.051557,0.408122,-1.518462,-0.018345,-0.007068,-0.984070,0.010281,0.005265,0.005806,0.999973,-0.000167,-0.007051,-0.001859,0.024791,-0.026994,0.007519
0.210000,-0.200000,0.050000,-0.049935,0.407230,-1.518840,-0.018345,-0.007068,-0.984070,0.010281,0.005265,0.005806,0.999973,-0.000167,-0.007051,-0.001859,0.024791,-0.026994,0.007519
0.210000,-0.200000,0.050000,-0.049935,0.407230,-1.518840,-0.007038,-0.008434,-0.990137,0.007845,-0.009020,0.000670,0.999962,0.001071,-0.008476,-0.001790,0.023863,-0.025941,0.003731
0.210000,-0.200000,0.050000,-0.049935,0.407230,-1.518840,-0.007038,-0.008434,-0.990137,0.007845,-0.009020,0.000670,0.999962,0.001071,-0.008476,-0.001790,0.023863,-0.025941,0.003731
0.210000,-0.200000,0.050000,-0.049935,0.407230,-1.518840,-0.031462,-0.009774,-0.973245,-0.063067,-0.018911,0.008164,0.999961,0.001000,-0.008662,-0.001448,0.025112,-0.017660,0.003969
0.190000,-0.130000,0.000000,-0.051209,0.405048,-1.520595,-0.031462,-0.009774,-0.973245,-0.063067,-0.018911,0.008164,0.999961,0.001000,-0.008662,-0.001448,0.025112,-0.017660,0.003969
0.190000,-0.130000,0.000000,-0.051209,0.405048,-1.520595,-0.007441,-0.012195,-0.984571,-0.018074,-0.009112,-0.000210,0.999956,-0.000295,-0.009315,-0.000975,0.027747,-0.019384,0.004997
0.190000,-0.130000,0.000000,-0.051209,0.405048,-1.520595,-0.007441,-0.012195,-0.984571,-0.018074,-0.009112,-0.000210,0.999956,-0.000295,-0.009315,-0.000975,0.027747,-0.019384,0.004997
0.190000,-0.130000,0.000000,-0.051209,0.405048,-1.520595,0.005522,-0.017732,-0.990996,-0.024333,0.000339,0.001645,0.999965,0.000689,-0.008282,-0.001233,0.025630,-0.010192,0.002522
0.200000,-0.130000,0.000000,-0.052449,0.402855,-1.523065,0.005522,-0.017732,-0.990996,-0.024333,0.000339,0.001645,0.999965,0.000689,-0.008282,-0.001233,0.025630,-0.010192,0.002522
0.200000,-0.130000,0.000000,-0.052449,0.402855,-1.523065,-0.016433,0.003145,-0.988260,-0.016825,0.018219,0.003329,0.999965,-0.000359,-0.008290,-0.001441,0.030088,-0.013670,0.007944
0.200000,-0.130000,0.000000,-0.052449,0.402855,-1.523065,-0.016433,0.003145,-0.988260,-0.016825,0.018219,0.003329,0.999965,-0.000359,-0.008290,-0.001441,0.030088,-0.013670,0.007944
0.200000,-0.130000,0.000000,-0.052449,0.402855,-1.523065,-0.000976,-0.007917,-0.995287,0.001446,-0.003654,-0.006442,0.999971,0.000312,-0.007489,-0.001637,0.030614,-0.015284,0.009438
0.230000,-0.140000,0.010000,-0.052513,0.399911,-1.524610,-0.000976,-0.007917,-0.995287,0.001446,-0.003654,-0.006442,0.999971,0.000312,-0.007489,-0.001637,0.030614,-0.015284,0.009438
0.230000,-0.140000,0.010000,-0.052513,0.399911,-1.524610,-0.023753,0.015607,-0.994817,-0.034571,-0.014839,-0.006127,0.999972,0.000775,-0.007326,-0.001517,0.032437,-0.010084,0.007202
0.230000,-0.140000,0.010000,-0.052513,0.399911,-1.524610,-0.023753,0.015607,-0.994817,-0.034571,-0.014839,-0.006127,0.999972,0.000775,-0.007326,-0.001517,0.032437,-0.010084,0.007202
0.230000,-0.140000,0.010000,-0.052513,0.399911,-1.524610,0.004716,0.006754,-0.998733,-0.042094,0.041040,-0.007248,0.999975,-0.001096,-0.006827,-0.001764,0.031216,-0.011135,0.010927
0.130000,-0.190000,0.090000,-0.056470,0.396036,-1.524834,0.004716,0.006754,-0.998733,-0.042094,0.041040,-0.007248,0.999975,-0.001096,-0.006827,-0.001764,0.031216,-0.011135,0.010927
0.130000,-0.190000,0.090000,-0.056470,0.396036,-1.524834,-0.007387,-0.022806,-0.992003,0.001165,0.001581,0.005700,0.999978,-0.001312,-0.006149,-0.001904,0.023847,-0.015018,0.013320
0.130000,-0.190000,0.090000,-0.056470,0.396036,-1.524834,-0.007387,-0.022806,-0.992003,0.001165,0.001581,0.005700,0.999978,-0.001312,-0.006149,-0.001904,0.023847,-0.015018,0.013320
0.130000,-0.190000,0.090000,-0.056470,0.396036,-1.524834,-0.032133,0.022377,-0.983100,0.033266,0.013268,-0.000160,0.999970,0.000547,-0.007541,-0.001633,0.026771,-0.019673,0.013812
0.130000,-0.190000,0.090000,-0.056470,0.396036,-1.524834,-0.032133,0.022377,-0.983100,0.033266,0.013268,-0.000160,0.999970,0.000547,-0.007541,-0.001633,0.026771,-0.019673,0.013812
0.230000,-0.130000,0.120000,-0.055251,0.396989,-1.521911,-0.032133,0.022377,-0.983100,0.033266,0.013268,-0.000160,0.999970,0.000547,-0.007541,-0.001633,0.026771,-0.019673,0.013812
0.230000,-0.130000,0.120000,-0.055251,0.396989,-1.521911,0.003820,-0.006005,-0.998884,-0.045071,-0.021086,-0.001146,0.999969,0.000411,-0.007706,-0.001425,0.024679,-0.007594,0.011803
0.230000,-0.130000,0.120000,-0.055251,0.396989,-1.521911,0.003820,-0.006005,-0.998884,-0.045071,-0.021086,-0.001146,0.999969,0.000411,-0.007706,-0.001425,0.024679,-0.007594,0.011803
0.230000,-0.130000,0.120000,-0.055251,0.396989,-1.521911,0.007383,0.018984,-0.987261,-0.030691,-0.015522,-0.003689,0.999964,-0.001131,-0.008328,-0.001357,0.029581,-0.008285,0.016637
0.070000,-0.110000,0.140000,-0.060865,0.392885,-1.519059,0.007383,0.018984,-0.987261,-0.030691,-0.015522,-0.003689,0.999964,-0.001131,-0.008328,-0.001357,0.029581,-0.008285,0.016637
0.070000,-0.110000,0.140000,-0.060865,0.392885,-1.519059,-0.022849,0.011286,-1.009330,-0.036674,-0.023302,0.011901,0.999966,-0.002298,-0.007835,-0.001434,0.020312,-0.007869,0.014244
0.070000,-0.110000,0.140000,-0.060865,0.392885,-1.519059,-0.022849,0.011286,-1.009330,-0.036674,-0.023302,0.011901,0.999966,-0.002298,-0.007835,-0.001434,0.020312,-0.007869,0.014244
0.070000,-0.110000,0.140000,-0.060865,0.392885,-1.519059,0.009268,-0.015429,-1.015099,0.025643,-0.010543,-0.003445,0.999951,-0.002062,-0.009593,-0.001431,0.021130,-0.016157,0.013658
0.120000,-0.140000,-0.080000,-0.063097,0.391191,-1.518146,0.009268,-0.015429,-1.015099,0.025643,-0.010543,-0.003445,0.999951,-0.002062,-0.009593,-0.001431,0.021130,-0.016157,0.013658
0.120000,-0.140000,-0.080000,-0.063097,0.391191,-1.518146,-0.004581,-0.009244,-1.114227,0.005844,0.007055,-0.002798,0.999949,0.000268,-0.010065,-0.001298,0.024426,-0.019418,-0.064804
0.120000,-0.140000,-0.080000,-0.063097,0.391191,-1.518146,-0.004581,-0.009244,-1.114227,0.005844,0.007055,-0.002798,0.999949,0.000268,-0.010065,-0.001298,0.024426,-0.019418,-0.064804
0.120000,-0.140000,-0.080000,-0.063097,0.391191,-1.518146,-0.029682,0.013888,-1.082069,0.060066,0.062618,0.003633,0.999948,0.001984,-0.009898,-0.001469,0.027252,-0.024659,-0.171043
